aX,aY,aZ
1314,-460,-218
1314,-460,-218
1314,-460,-218
1314,-460,-218
1314,-460,-218
1314,-460,-218
1314,-460,-218
1314,-460,-218
1314,-460,-218
1483,-625,-124
1483,-625,-124
1483,-625,-124
1581,-789,52
1581,-789,52
1581,-789,52
1581,-789,52
1581,-789,52
1581,-789,52
1581,-789,52
1581,-789,52
1581,-789,52
1581,-789,52
1581,-789,52
1581,-789,52
1581,-789,52
1520,-886,88
1520,-886,88
1520,-886,88
1520,-886,88
1520,-886,88
1312,-947,29
1312,-947,29
1312,-947,29
1312,-947,29
1312,-947,29
1312,-947,29
1312,-947,29
1312,-947,29
1312,-947,29
1119,-987,-3
1119,-987,-3
1119,-987,-3
1119,-987,-3
1119,-987,-3
1119,-987,-3
1119,-987,-3
1119,-987,-3
1119,-987,-3
1119,-987,-3
1119,-987,-3
1119,-987,-3
1119,-987,-3
1049,-864,-136
1049,-864,-136
1049,-864,-136
1049,-864,-136
1049,-864,-136
1049,-864,-136
1049,-864,-136
1049,-864,-136
1049,-864,-136
1049,-864,-136
1049,-864,-136
1109,-804,-93
1109,-804,-93
1109,-804,-93
1109,-804,-93
1109,-804,-93
1109,-804,-93
1109,-804,-93
1109,-804,-93
1109,-804,-93
1109,-804,-93
1099,-811,-27
1099,-811,-27
903,-805,-41
903,-805,-41
903,-805,-41
903,-805,-41
903,-805,-41
903,-805,-41
903,-805,-41
903,-805,-41
903,-805,-41
903,-805,-41
903,-805,-41
903,-805,-41
903,-805,-41
903,-805,-41
653,-716,-127
653,-716,-127
653,-716,-127
653,-716,-127
653,-716,-127
447,-609,-150
447,-609,-150
447,-609,-150
447,-609,-150
447,-609,-150
447,-609,-150
447,-609,-150
303,-456,-178
303,-456,-178
303,-456,-178
303,-456,-178
303,-456,-178
303,-456,-178
303,-456,-178
303,-456,-178
303,-456,-178
303,-456,-178
303,-456,-178
303,-456,-178
261,-308,-179
261,-308,-179
533,-156,74
533,-156,74
533,-156,74
533,-156,74
1292,-1007,21
1292,-1007,21
1292,-1007,21
1292,-1007,21
1292,-1007,21
1292,-1007,21
1292,-1007,21
1198,-1192,-11
1198,-1192,-11
1198,-1192,-11
1198,-1192,-11
1198,-1192,-11
1198,-1192,-11
1087,-1342,-13
1087,-1342,-13
1087,-1342,-13
1087,-1342,-13
1087,-1342,-13
1087,-1342,-13
1087,-1342,-13
1087,-1342,-13
1087,-1342,-13
1087,-1342,-13
1087,-1342,-13
1003,-1384,-53
1003,-1384,-53
1003,-1384,-53
1003,-1384,-53
944,-1337,-57
944,-1337,-57
944,-1337,-57
944,-1337,-57
944,-1337,-57
944,-1337,-57
944,-1337,-57
912,-1234,-48
912,-1234,-48
912,-1234,-48
912,-1234,-48
912,-1234,-48
912,-1234,-48
912,-1234,-48
912,-1234,-48
912,-1234,-48
912,-1234,-48
912,-1234,-48
912,-1234,-48
879,-1049,-83
879,-1049,-83
861,-816,-241
861,-816,-241
861,-816,-241
861,-816,-241
861,-816,-241
861,-816,-241
861,-816,-241
861,-816,-241
861,-816,-241
861,-816,-241
861,-816,-241
884,-656,-246
884,-656,-246
884,-656,-246
884,-656,-246
884,-656,-246
884,-656,-246
884,-656,-246
884,-656,-246
884,-656,-246
884,-656,-246
879,-559,-156
879,-559,-156
766,-483,-102
766,-483,-102
766,-483,-102
766,-483,-102
766,-483,-102
766,-483,-102
766,-483,-102
766,-483,-102
766,-483,-102
766,-483,-102
766,-483,-102
766,-483,-102
641,-388,3
641,-388,3
641,-388,3
641,-388,3
641,-388,3
641,-388,3
641,-388,3
525,-256,132
525,-256,132
525,-256,132
525,-256,132
525,-256,132
525,-256,132
525,-256,132
525,-256,132
393,-81,249
393,-81,249
393,-81,249
393,-81,249
393,-81,249
393,-81,249
393,-81,249
393,-81,249
393,-81,249
393,-81,249
393,-81,249
393,-81,249
393,-81,249
393,-81,249
457,559,173
457,559,173
457,559,173
457,559,173
457,559,173
457,559,173
1325,-789,45
1325,-789,45
1325,-789,45
1325,-789,45
1378,-915,86
1378,-915,86
1378,-915,86
1378,-915,86
1378,-915,86
1378,-915,86
1378,-915,86
1378,-915,86
1378,-915,86
1378,-915,86
1378,-915,86
1370,-1002,96
1370,-1002,96
1370,-1002,96
1370,-1002,96
1370,-1002,96
1370,-1002,96
1370,-1002,96
1370,-1002,96
1370,-1002,96
1370,-1002,96
1370,-1002,96
1373,-998,19
1358,-978,-13
1358,-978,-13
1358,-978,-13
1358,-978,-13
1358,-978,-13
1358,-978,-13
1358,-978,-13
1358,-978,-13
1358,-978,-13
1358,-978,-13
1358,-978,-13
1358,-978,-13
1338,-1017,84
1338,-1017,84
1338,-1017,84
1338,-1017,84
1338,-1017,84
1338,-1017,84
1338,-1017,84
1338,-1017,84
1209,-1051,89
1209,-1051,89
1209,-1051,89
1209,-1051,89
1060,-1053,145
1060,-1053,145
1060,-1053,145
1060,-1053,145
1060,-1053,145
1060,-1053,145
1060,-1053,145
1060,-1053,145
1060,-1053,145
1060,-1053,145
1060,-1053,145
963,-976,167
963,-976,167
963,-976,167
963,-976,167
963,-976,167
963,-976,167
963,-976,167
919,-864,207
919,-864,207
919,-864,207
919,-864,207
919,-864,207
919,-864,207
816,-744,297
816,-744,297
816,-744,297
816,-744,297
816,-744,297
816,-744,297
816,-744,297
816,-744,297
816,-744,297
816,-744,297
816,-744,297
816,-744,297
816,-744,297
706,-617,315
706,-617,315
706,-617,315
545,-435,241
545,-435,241
545,-435,241
545,-435,241
545,-435,241
545,-435,241
545,-435,241
545,-435,241
545,-435,241
545,-435,241
424,-202,103
424,-202,103
424,-202,103
424,-202,103
424,-202,103
424,-202,103
424,-202,103
424,-202,103
424,-202,103
424,-202,103
424,-202,103
424,-202,103
415,84,-5
423,321,21
423,321,21
423,321,21
423,321,21
423,321,21
1363,-271,171
1363,-271,171
1363,-271,171
1363,-271,171
1363,-271,171
1363,-271,171
1363,-271,171
1363,-271,171
1363,-271,171
1363,-271,171
1384,-357,94
1384,-357,94
1384,-357,94
1237,-473,-60
1237,-473,-60
1237,-473,-60
1237,-473,-60
1237,-473,-60
1237,-473,-60
1237,-473,-60
1237,-473,-60
1237,-473,-60
1237,-473,-60
1237,-473,-60
1237,-473,-60
1237,-473,-60
1092,-641,-159
1092,-641,-159
1092,-641,-159
1092,-641,-159
1092,-641,-159
1114,-811,-149
1114,-811,-149
1114,-811,-149
1114,-811,-149
1114,-811,-149
1114,-811,-149
1175,-980,-101
1175,-980,-101
1175,-980,-101
1175,-980,-101
1175,-980,-101
1175,-980,-101
1175,-980,-101
1175,-980,-101
1175,-980,-101
1175,-980,-101
1175,-980,-101
1177,-1067,-79
1177,-1067,-79
1177,-1067,-79
1177,-1067,-79
1098,-1071,-144
1098,-1071,-144
1098,-1071,-144
1098,-1071,-144
1098,-1071,-144
1098,-1071,-144
971,-1006,-266
971,-1006,-266
971,-1006,-266
971,-1006,-266
971,-1006,-266
971,-1006,-266
971,-1006,-266
971,-1006,-266
971,-1006,-266
971,-1006,-266
971,-1006,-266
934,-916,-324
934,-916,-324
934,-916,-324
934,-916,-324
944,-863,-245
944,-863,-245
944,-863,-245
944,-863,-245
944,-863,-245
944,-863,-245
944,-863,-245
944,-863,-245
923,-804,-167
923,-804,-167
923,-804,-167
923,-804,-167
923,-804,-167
923,-804,-167
923,-804,-167
923,-804,-167
923,-804,-167
923,-804,-167
923,-804,-167
923,-804,-167
885,-708,-143
881,-655,-62
881,-655,-62
881,-655,-62
881,-655,-62
881,-655,-62
881,-655,-62
881,-655,-62
881,-655,-62
881,-655,-62
881,-655,-62
881,-655,-62
881,-655,-62
881,-655,-62
839,-585,45
839,-585,45
839,-585,45
839,-585,45
839,-585,45
839,-585,45
839,-585,45
839,-585,45
800,-441,101
800,-441,101
800,-441,101
800,-441,101
1117,-303,169
1117,-303,169
1117,-303,169
1117,-303,169
1117,-303,169
1117,-303,169
1117,-303,169
1117,-303,169
1117,-303,169
1117,-303,169
1117,-303,169
1025,-345,-43
1025,-345,-43
1104,-408,-99
1104,-408,-99
1104,-408,-99
1104,-408,-99
1104,-408,-99
1104,-408,-99
1104,-408,-99
1104,-408,-99
1104,-408,-99
1104,-408,-99
1104,-408,-99
1104,-408,-99
1275,-512,-40
1275,-512,-40
1275,-512,-40
1275,-512,-40
1275,-512,-40
1275,-512,-40
1275,-512,-40
1489,-561,-13
1489,-561,-13
1489,-561,-13
1489,-561,-13
1489,-561,-13
1489,-561,-13
1664,-609,-42
1664,-609,-42
1664,-609,-42
1664,-609,-42
1664,-609,-42
1664,-609,-42
1664,-609,-42
1664,-609,-42
1664,-609,-42
1664,-609,-42
1664,-609,-42
1664,-609,-42
1593,-770,-76
1593,-770,-76
1593,-770,-76
1384,-924,-244
1384,-924,-244
1384,-924,-244
1384,-924,-244
1384,-924,-244
1384,-924,-244
1384,-924,-244
1384,-924,-244
1171,-1017,-429
1171,-1017,-429
1171,-1017,-429
1171,-1017,-429
1171,-1017,-429
1171,-1017,-429
1171,-1017,-429
1171,-1017,-429
1171,-1017,-429
1171,-1017,-429
1036,-1104,-463
1036,-1104,-463
1036,-1104,-463
1041,-1150,-328
1041,-1150,-328
1041,-1150,-328
1041,-1150,-328
1041,-1150,-328
1041,-1150,-328
1041,-1150,-328
1056,-1233,-101
1056,-1233,-101
1056,-1233,-101
1056,-1233,-101
1056,-1233,-101
1056,-1233,-101
1056,-1233,-101
1056,-1233,-101
1056,-1233,-101
1056,-1233,-101
1090,-1276,64
1090,-1276,64
1090,-1276,64
1090,-1276,64
1101,-1308,236
1101,-1308,236
1101,-1308,236
1101,-1308,236
1101,-1308,236
1101,-1308,236
1101,-1308,236
950,-1207,286
950,-1207,286
950,-1207,286
950,-1207,286
950,-1207,286
950,-1207,286
950,-1207,286
950,-1207,286
950,-1207,286
950,-1207,286
950,-1207,286
950,-1207,286
845,-988,294
845,-988,294
743,-701,246
743,-701,246
743,-701,246
1216,-621,24
1216,-621,24
1216,-621,24
1216,-621,24
1216,-621,24
1216,-621,24
1216,-621,24
1216,-621,24
1216,-621,24
1216,-621,24
1195,-684,-9
1195,-684,-9
1195,-684,-9
1195,-684,-9
1195,-684,-9
1160,-731,-20
1160,-731,-20
1160,-731,-20
1160,-731,-20
1160,-731,-20
1160,-731,-20
1160,-731,-20
1160,-731,-20
1160,-731,-20
1160,-731,-20
1160,-731,-20
1160,-731,-20
1122,-747,-49
1122,-747,-49
1122,-747,-49
1122,-747,-49
1116,-776,4
1116,-776,4
1116,-776,4
1116,-776,4
1116,-776,4
1116,-776,4
1116,-776,4
1116,-776,4
1116,-776,4
1116,-776,4
1109,-806,-1
1109,-806,-1
1109,-806,-1
1109,-806,-1
1109,-806,-1
1109,-806,-1
1109,-806,-1
1109,-806,-1
1109,-806,-1
1109,-806,-1
1109,-806,-1
1075,-793,-37
1075,-793,-37
1082,-773,-53
1082,-773,-53
1082,-773,-53
1082,-773,-53
1082,-773,-53
1082,-773,-53
1082,-773,-53
1082,-773,-53
1082,-773,-53
1082,-773,-53
1082,-773,-53
1082,-773,-53
1026,-746,-87
1026,-746,-87
1026,-746,-87
1026,-746,-87
1026,-746,-87
1026,-746,-87
1026,-746,-87
956,-692,-53
956,-692,-53
956,-692,-53
956,-692,-53
956,-692,-53
956,-692,-53
962,-637,9
962,-637,9
962,-637,9
962,-637,9
962,-637,9
962,-637,9
962,-637,9
962,-637,9
962,-637,9
962,-637,9
962,-637,9
962,-637,9
962,-637,9
962,-637,9
962,-637,9
962,-637,9
903,-610,109
748,-565,259
748,-565,259
748,-565,259
748,-565,259
748,-565,259
748,-565,259
748,-565,259
748,-565,259
748,-565,259
748,-565,259
748,-565,259
748,-565,259
748,-565,259
596,-450,266
596,-450,266
596,-450,266
596,-450,266
596,-450,266
596,-450,266
596,-450,266
596,-450,266
445,-254,206
445,-254,206
1525,-514,170
1525,-514,170
1525,-514,170
1525,-514,170
1525,-514,170
1592,-635,125
1592,-635,125
1592,-635,125
1592,-635,125
1592,-635,125
1592,-635,125
1592,-635,125
1592,-635,125
1710,-754,118
1710,-754,118
1710,-754,118
1710,-754,118
1710,-754,118
1710,-754,118
1710,-754,118
1710,-754,118
1710,-754,118
1710,-754,118
1710,-754,118
1710,-754,118
1737,-947,74
1737,-947,74
1689,-1184,-63
1689,-1184,-63
1689,-1184,-63
1689,-1184,-63
1689,-1184,-63
1689,-1184,-63
1689,-1184,-63
1689,-1184,-63
1689,-1184,-63
1545,-1381,-160
1545,-1381,-160
1545,-1381,-160
1545,-1381,-160
1545,-1381,-160
1545,-1381,-160
1545,-1381,-160
1545,-1381,-160
1545,-1381,-160
1545,-1381,-160
1545,-1381,-160
1771,-1377,-282
1771,-1377,-282
1771,-1377,-282
1771,-1377,-282
1771,-1377,-282
1771,-1377,-282
1771,-1377,-282
1771,-1377,-282
1771,-1377,-282
1771,-1377,-282
1690,-1432,-249
1690,-1432,-249
1690,-1432,-249
1690,-1432,-249
1690,-1432,-249
1690,-1432,-249
1690,-1432,-249
1690,-1432,-249
1690,-1432,-249
1690,-1432,-249
1375,-1431,-339
991,-1372,-503
991,-1372,-503
991,-1372,-503
991,-1372,-503
991,-1372,-503
991,-1372,-503
991,-1372,-503
991,-1372,-503
991,-1372,-503
710,-1230,-578
710,-1230,-578
710,-1230,-578
710,-1230,-578
710,-1230,-578
710,-1230,-578
710,-1230,-578
710,-1230,-578
710,-1230,-578
710,-1230,-578
710,-1230,-578
532,-1098,-577
390,-979,-380
390,-979,-380
390,-979,-380
390,-979,-380
390,-979,-380
390,-979,-380
390,-979,-380
390,-979,-380
390,-979,-380
390,-979,-380
390,-979,-380
303,-854,-138
303,-854,-138
303,-854,-138
303,-854,-138
303,-854,-138
303,-854,-138
303,-854,-138
303,-854,-138
303,-854,-138
303,-854,-138
222,-641,46
222,-641,46
222,-641,46
95,-335,24
95,-335,24
95,-335,24
95,-335,24
95,-335,24
95,-335,24
1559,49,247
1559,49,247
1559,49,247
1559,49,247
1559,49,247
1559,49,247
1559,49,247
1559,49,247
1559,49,247
1559,49,247
1559,49,247
1559,49,247
1559,49,247
1559,49,247
1559,49,247
1559,49,247
1426,-361,35
1426,-361,35
1426,-361,35
1426,-361,35
1426,-361,35
1426,-361,35
1426,-361,35
1426,-361,35
1426,-361,35
1426,-361,35
1426,-361,35
1426,-361,35
1426,-361,35
1522,-683,152
1522,-683,152
1522,-683,152
1522,-683,152
1522,-683,152
1522,-683,152
1522,-683,152
1522,-683,152
1633,-999,292
1633,-999,292
1633,-999,292
1633,-999,292
1693,-1327,438
1693,-1327,438
1693,-1327,438
1693,-1327,438
1693,-1327,438
1693,-1327,438
1693,-1327,438
1693,-1327,438
1693,-1327,438
1693,-1327,438
1693,-1327,438
1667,-1485,373
1667,-1485,373
1667,-1485,373
1667,-1485,373
1667,-1485,373
1667,-1485,373
1667,-1485,373
1640,-1498,251
1640,-1498,251
1640,-1498,251
1640,-1498,251
1597,-1448,46
1597,-1448,46
1597,-1448,46
1597,-1448,46
1597,-1448,46
1597,-1448,46
1597,-1448,46
1597,-1448,46
1597,-1448,46
1597,-1448,46
1597,-1448,46
1597,-1448,46
1491,-1444,-151
1491,-1444,-151
1491,-1444,-151
1491,-1444,-151
1491,-1444,-151
1333,-1392,-345
1333,-1392,-345
1333,-1392,-345
1333,-1392,-345
1333,-1392,-345
1288,-1318,-528
1288,-1318,-528
1288,-1318,-528
1288,-1318,-528
1288,-1318,-528
1288,-1318,-528
1288,-1318,-528
1288,-1318,-528
1288,-1318,-528
1288,-1318,-528
1126,-1314,-470
1126,-1314,-470
1126,-1314,-470
1126,-1314,-470
1126,-1314,-470
1126,-1314,-470
977,-1219,-325
977,-1219,-325
977,-1219,-325
977,-1219,-325
923,-1051,-288
923,-1051,-288
923,-1051,-288
923,-1051,-288
923,-1051,-288
923,-1051,-288
923,-1051,-288
923,-1051,-288
923,-1051,-288
923,-1051,-288
923,-1051,-288
858,-983,-196
858,-983,-196
858,-983,-196
1479,-137,518
1479,-137,518
1479,-137,518
1479,-137,518
1479,-137,518
1479,-137,518
1479,-137,518
1479,-137,518
1479,-137,518
1479,-137,518
1479,-137,518
1479,-137,518
1479,-137,518
1635,-165,462
1635,-165,462
1635,-165,462
1736,-273,387
1736,-273,387
1736,-273,387
1736,-273,387
1736,-273,387
1736,-273,387
1736,-273,387
1736,-273,387
1736,-273,387
1709,-450,501
1709,-450,501
1709,-450,501
1709,-450,501
1709,-450,501
1709,-450,501
1709,-450,501
1709,-450,501
1709,-450,501
1709,-450,501
1709,-450,501
1709,-450,501
1748,-1126,815
1748,-1126,815
1748,-1126,815
1748,-1126,815
1748,-1126,815
1748,-1126,815
1748,-1126,815
1748,-1126,815
1748,-1126,815
1748,-1126,815
1748,-1126,815
1687,-1404,712
1687,-1404,712
1687,-1404,712
1687,-1404,712
1687,-1404,712
1687,-1404,712
1687,-1404,712
1687,-1404,712
1687,-1404,712
1687,-1404,712
1687,-1404,712
1206,-1885,109
1206,-1885,109
1206,-1885,109
1206,-1885,109
1206,-1885,109
1206,-1885,109
1206,-1885,109
1206,-1885,109
1206,-1885,109
1206,-1885,109
999,-1914,-228
999,-1914,-228
999,-1914,-228
999,-1914,-228
999,-1914,-228
999,-1914,-228
999,-1914,-228
999,-1914,-228
999,-1914,-228
999,-1914,-228
999,-1914,-228
820,-1882,-552
820,-1882,-552
820,-1882,-552
820,-1882,-552
820,-1882,-552
820,-1882,-552
820,-1882,-552
820,-1882,-552
820,-1882,-552
820,-1882,-552
820,-1882,-552
787,-1881,-469
787,-1881,-469
787,-1881,-469
787,-1881,-469
787,-1881,-469
787,-1881,-469
787,-1881,-469
787,-1881,-469
787,-1881,-469
787,-1881,-469
790,-1835,-389
710,-1801,-245
710,-1801,-245
710,-1801,-245
710,-1801,-245
710,-1801,-245
710,-1801,-245
710,-1801,-245
710,-1801,-245
710,-1801,-245
710,-1801,-245
710,-1801,-245
542,-1754,-130
542,-1754,-130
542,-1754,-130
542,-1754,-130
542,-1754,-130
542,-1754,-130