aX,aY,aZ
813,-236,-170
813,-236,-170
813,-236,-170
813,-236,-170
813,-236,-170
813,-236,-170
813,-236,-170
813,-236,-170
813,-236,-170
813,-236,-170
813,-236,-170
813,-236,-170
813,-236,-170
678,-396,-261
678,-396,-261
678,-396,-261
678,-396,-261
678,-396,-261
678,-396,-261
678,-396,-261
678,-396,-261
678,-396,-261
678,-396,-261
678,-396,-261
678,-396,-261
678,-396,-261
500,-460,-450
500,-460,-450
500,-460,-450
500,-460,-450
500,-460,-450
500,-460,-450
500,-460,-450
500,-460,-450
500,-460,-450
463,-547,-566
463,-547,-566
463,-547,-566
546,-610,-475
546,-610,-475
546,-610,-475
546,-610,-475
546,-610,-475
546,-610,-475
546,-610,-475
546,-610,-475
546,-610,-475
546,-610,-475
546,-610,-475
546,-610,-475
663,-672,-262
663,-672,-262
663,-672,-262
663,-672,-262
663,-672,-262
749,-672,-123
749,-672,-123
749,-672,-123
749,-672,-123
749,-672,-123
749,-672,-123
749,-672,-123
607,-607,-13
607,-607,-13
607,-607,-13
607,-607,-13
607,-607,-13
607,-607,-13
607,-607,-13
607,-607,-13
607,-607,-13
607,-607,-13
607,-607,-13
607,-607,-13
607,-607,-13
384,-499,-61
162,-369,-142
162,-369,-142
162,-369,-142
162,-369,-142
162,-369,-142
162,-369,-142
162,-369,-142
162,-369,-142
162,-369,-142
162,-369,-142
162,-369,-142
162,-369,-142
-23,-258,-156
-23,-258,-156
-23,-258,-156
-23,-258,-156
-23,-258,-156
-23,-258,-156
-23,-258,-156
-23,-258,-156
-23,-258,-156
-18,-146,-199
-18,-146,-199
-18,-146,-199
116,-45,-165
116,-45,-165
116,-45,-165
116,-45,-165
116,-45,-165
116,-45,-165
116,-45,-165
116,-45,-165
116,-45,-165
116,-45,-165
116,-45,-165
116,-45,-165
116,-45,-165
220,57,-66
220,57,-66
220,57,-66
220,57,-66
220,57,-66
270,240,-57
820,-27,-183
820,-27,-183
820,-27,-183
820,-27,-183
820,-27,-183
820,-27,-183
820,-27,-183
820,-27,-183
820,-27,-183
820,-27,-183
820,-27,-183
820,-27,-183
667,22,-327
667,22,-327
667,22,-327
392,-10,-494
392,-10,-494
392,-10,-494
392,-10,-494
392,-10,-494
392,-10,-494
392,-10,-494
392,-10,-494
392,-10,-494
392,-10,-494
392,-10,-494
392,-10,-494
392,-10,-494
392,-10,-494
260,-96,-573
260,-96,-573
260,-96,-573
260,-96,-573
151,-236,-246
151,-236,-246
151,-236,-246
151,-236,-246
151,-236,-246
151,-236,-246
151,-236,-246
151,-236,-246
145,-286,-303
145,-286,-303
145,-286,-303
145,-286,-303
145,-286,-303
145,-286,-303
145,-286,-303
145,-286,-303
145,-286,-303
145,-286,-303
145,-286,-303
145,-286,-303
161,-393,-658
183,-513,-785
183,-513,-785
183,-513,-785
183,-513,-785
183,-513,-785
183,-513,-785
183,-513,-785
183,-513,-785
183,-513,-785
183,-513,-785
183,-513,-785
183,-513,-785
195,-556,-957
195,-556,-957
195,-556,-957
195,-556,-957
195,-556,-957
195,-556,-957
195,-556,-957
195,-556,-957
195,-556,-957
187,-646,-1045
187,-646,-1045
116,-691,-824
116,-691,-824
116,-691,-824
116,-691,-824
116,-691,-824
116,-691,-824
116,-691,-824
116,-691,-824
116,-691,-824
116,-691,-824
116,-691,-824
116,-691,-824
116,-691,-824
10,-618,-592
10,-618,-592
10,-618,-592
10,-618,-592
10,-618,-592
10,-618,-592
-94,-604,-418
-94,-604,-418
-94,-604,-418
-94,-604,-418
-94,-604,-418
-94,-604,-418
-21,-602,-276
-21,-602,-276
-21,-602,-276
-21,-602,-276
-21,-602,-276
-21,-602,-276
-21,-602,-276
-21,-602,-276
-21,-602,-276
-21,-602,-276
-21,-602,-276
-21,-602,-276
-21,-602,-276
79,-556,-309
167,-423,-397
167,-423,-397
167,-423,-397
1203,-483,-46
1203,-483,-46
1203,-483,-46
1203,-483,-46
1203,-483,-46
1203,-483,-46
1203,-483,-46
1203,-483,-46
1203,-483,-46
1203,-483,-46
1203,-483,-46
1203,-483,-46
1203,-483,-46
1228,-509,-208
1228,-509,-208
1228,-509,-208
1228,-509,-208
1228,-509,-208
1228,-509,-208
1228,-509,-208
1228,-509,-208
1228,-509,-208
1228,-509,-208
1228,-509,-208
1216,-481,-211
1216,-481,-211
1216,-481,-211
1216,-481,-211
1216,-481,-211
1216,-481,-211
1216,-481,-211
1216,-481,-211
1216,-481,-211
1216,-481,-211
1216,-481,-211
641,-500,-263
641,-500,-263
641,-500,-263
641,-500,-263
641,-500,-263
641,-500,-263
641,-500,-263
641,-500,-263
641,-500,-263
641,-500,-263
641,-500,-263
641,-500,-263
641,-500,-263
556,-460,-292
556,-460,-292
556,-460,-292
556,-460,-292
556,-460,-292
556,-460,-292
556,-460,-292
556,-460,-292
510,-427,-154
510,-427,-154
510,-427,-154
510,-427,-154
479,-417,-50
479,-417,-50
479,-417,-50
479,-417,-50
479,-417,-50
479,-417,-50
479,-417,-50
479,-417,-50
479,-417,-50
479,-417,-50
479,-417,-50
479,-417,-50
479,-417,-50
248,-396,11
248,-396,11
248,-396,11
248,-396,11
178,-314,33
178,-314,33
178,-314,33
178,-314,33
178,-314,33
178,-314,33
178,-314,33
178,-314,33
178,-314,33
178,-314,33
178,-314,33
225,-164,186
225,-164,186
225,-164,186
225,-164,186
225,-164,186
225,-164,186
225,-164,186
225,-164,186
225,-164,186
225,-164,186
225,-164,186
126,4,186
126,4,186
126,4,186
-104,155,212
-104,155,212
-104,155,212
-104,155,212
-104,155,212
-104,155,212
-104,155,212
-104,155,212
-104,155,212
-104,155,212
-104,155,212
-104,155,212
-104,155,212
-281,203,268
-281,203,268
-281,203,268
-281,203,268
800,-378,93
800,-378,93
800,-378,93
800,-378,93
800,-378,93
800,-378,93
800,-378,93
800,-378,93
800,-378,93
800,-378,93
800,-378,93
800,-378,93
800,-378,93
846,-431,93
846,-431,93
846,-431,93
1047,-426,161
1047,-426,161
1047,-426,161
1047,-426,161
1047,-426,161
1047,-426,161
1047,-426,161
1047,-426,161
1047,-426,161
1047,-426,161
1047,-426,161
1047,-426,161
979,-428,85
979,-428,85
979,-428,85
979,-428,85
979,-428,85
979,-428,85
979,-428,85
567,-447,21
567,-447,21
567,-447,21
567,-447,21
567,-447,21
567,-447,21
567,-447,21
567,-447,21
658,-370,-37
658,-370,-37
658,-370,-37
658,-370,-37
658,-370,-37
658,-370,-37
658,-370,-37
658,-370,-37
658,-370,-37
658,-370,-37
658,-370,-37
658,-370,-37
658,-370,-37
523,-438,-42
285,-346,-73
285,-346,-73
285,-346,-73
285,-346,-73
285,-346,-73
285,-346,-73
285,-346,-73
285,-346,-73
285,-346,-73
285,-346,-73
285,-346,-73
285,-346,-73
285,-346,-73
135,-219,-140
135,-219,-140
135,-219,-140
135,-219,-140
135,-219,-140
135,-219,-140
135,-219,-140
92,-148,-144
92,-148,-144
92,-148,-144
92,-148,-144
92,-148,-144
92,-148,-144
76,-56,-231
76,-56,-231
76,-56,-231
76,-56,-231
76,-56,-231
76,-56,-231
76,-56,-231
76,-56,-231
76,-56,-231
76,-56,-231
76,-56,-231
76,-56,-231
76,-56,-231
76,-56,-231
76,-56,-231
142,141,-323
142,141,-323
142,141,-323
142,141,-323
142,141,-323
142,141,-323
142,141,-323
142,141,-323
142,141,-323
142,141,-323
142,141,-323
142,141,-323
142,141,-323
74,228,-312
74,228,-312
74,228,-312
74,228,-312
74,228,-312
74,228,-312
74,228,-312
74,228,-312
1005,-303,-7
1005,-303,-7
1005,-303,-7
1005,-303,-7
1114,-371,8
1114,-371,8
1114,-371,8
1114,-371,8
1114,-371,8
1114,-371,8
1114,-371,8
1114,-371,8
1114,-371,8
1114,-371,8
1114,-371,8
1114,-371,8
1169,-435,4
1169,-435,4
1169,-435,4
1169,-435,4
1169,-435,4
1169,-435,4
1169,-435,4
1169,-435,4
1169,-435,4
1169,-435,4
1034,-399,14
1034,-399,14
1034,-399,14
1034,-399,14
808,-391,75
808,-391,75
808,-391,75
808,-391,75
808,-391,75
808,-391,75
808,-391,75
808,-391,75
808,-391,75
808,-391,75
808,-391,75
808,-391,75
808,-391,75
808,-391,75
808,-391,75
503,-363,110
503,-363,110
238,-278,-5
238,-278,-5
238,-278,-5
238,-278,-5
238,-278,-5
238,-278,-5
238,-278,-5
238,-278,-5
238,-278,-5
238,-278,-5
238,-278,-5
238,-278,-5
238,-278,-5
97,-194,-100
97,-194,-100
97,-194,-100
97,-194,-100
97,-194,-100
97,-194,-100
97,-194,-100
97,-194,-100
97,-194,-100
46,-71,-100
46,-71,-100
46,-71,-100
46,-71,-100
46,-71,-100
23,32,-144
23,32,-144
23,32,-144
23,32,-144
23,32,-144
23,32,-144
23,32,-144
23,32,-144
23,32,-144
23,32,-144
23,32,-144
23,32,-144
23,32,-144
23,32,-144
23,32,-144
23,32,-144
23,32,-144
-84,31,-207
-84,31,-207
-84,31,-207
-84,31,-207
-84,31,-207
-84,31,-207
-84,31,-207
-84,31,-207
-84,31,-207
-84,31,-207
-84,31,-207
-84,31,-207
-84,31,-207
-84,31,-207
-84,31,-207
-84,31,-207
-162,46,-161
-162,46,-161
-162,46,-161
-162,46,-161
-162,46,-161
-221,149,-89
-221,149,-89
-221,149,-89
-221,149,-89
-221,149,-89
-221,149,-89
-221,149,-89
619,-216,-50
619,-216,-50
619,-216,-50
619,-216,-50
619,-216,-50
617,-222,-113
617,-222,-113
617,-222,-113
617,-222,-113
617,-222,-113
617,-222,-113
617,-222,-113
617,-222,-113
617,-222,-113
684,-246,-136
684,-246,-136
684,-246,-136
684,-246,-136
684,-246,-136
684,-246,-136
684,-246,-136
684,-246,-136
684,-246,-136
684,-246,-136
684,-246,-136
684,-246,-136
1155,-398,285
1155,-398,285
1155,-398,285
1155,-398,285
1155,-398,285
1155,-398,285
1155,-398,285
1155,-398,285
1155,-398,285
1155,-398,285
1155,-398,285
1155,-398,285
657,-485,128
657,-485,128
657,-485,128
657,-485,128
657,-485,128
657,-485,128
657,-485,128
657,-485,128
657,-485,128
657,-485,128
748,-550,40
748,-550,40
748,-550,40
711,-485,-62
711,-485,-62
711,-485,-62
711,-485,-62
711,-485,-62
711,-485,-62
711,-485,-62
711,-485,-62
711,-485,-62
711,-485,-62
711,-485,-62
711,-485,-62
711,-485,-62
711,-485,-62
610,-388,-207
610,-388,-207
610,-388,-207
610,-388,-207
450,-254,-203
450,-254,-203
450,-254,-203
450,-254,-203
450,-254,-203
450,-254,-203
450,-254,-203
450,-254,-203
242,-159,-257
242,-159,-257
242,-159,-257
242,-159,-257
242,-159,-257
242,-159,-257
242,-159,-257
242,-159,-257
242,-159,-257
242,-159,-257
242,-159,-257
242,-159,-257
188,-90,-338
168,-77,-362
168,-77,-362
168,-77,-362
168,-77,-362
168,-77,-362
168,-77,-362
168,-77,-362
168,-77,-362
168,-77,-362
168,-77,-362
168,-77,-362
168,-77,-362
168,-77,-362
93,-79,-303
93,-79,-303
93,-79,-303
93,-79,-303
93,-79,-303
93,-79,-303
93,-79,-303
93,-79,-303
93,-79,-303
14,-23,-216
14,-23,-216
14,-23,-216
14,-23,-216
14,-23,-216
14,-23,-216
-25,52,-146
804,-600,83
804,-600,83
804,-600,83
889,-628,4
889,-628,4
889,-628,4
889,-628,4
889,-628,4
889,-628,4
889,-628,4
889,-628,4
889,-628,4
889,-628,4
889,-628,4
889,-628,4
889,-628,4
889,-628,4
889,-628,4
917,-615,-129
917,-615,-129
917,-615,-129
917,-615,-129
917,-615,-129
917,-615,-129
917,-615,-129
781,-599,-238
781,-599,-238
781,-599,-238
781,-599,-238
781,-599,-238
537,-629,-349
537,-629,-349
537,-629,-349
537,-629,-349
537,-629,-349
537,-629,-349
537,-629,-349
537,-629,-349
537,-629,-349
537,-629,-349
537,-629,-349
537,-629,-349
537,-629,-349
302,-548,-362
302,-548,-362
302,-548,-362
172,-423,-356
172,-423,-356
172,-423,-356
172,-423,-356
172,-423,-356
172,-423,-356
172,-423,-356
172,-423,-356
172,-423,-356
67,-363,-299
67,-363,-299
67,-363,-299
67,-363,-299
67,-363,-299
67,-363,-299
67,-363,-299
67,-363,-299
67,-363,-299
67,-363,-299
67,-363,-299
67,-363,-299
1,-312,-179
13,-232,-151
13,-232,-151
13,-232,-151
13,-232,-151
13,-232,-151
13,-232,-151
13,-232,-151
13,-232,-151
13,-232,-151
13,-232,-151
13,-232,-151
13,-232,-151
13,-232,-151
13,-232,-151
-57,-118,-95
-57,-118,-95
-57,-118,-95
-57,-118,-95
-57,-118,-95
-57,-118,-95
-180,11,-35
-180,11,-35
-180,11,-35
-180,11,-35
-180,11,-35
-180,11,-35
-180,11,-35
-180,11,-35
-185,184,-1
-185,184,-1
-185,184,-1
-185,184,-1
-185,184,-1
-185,184,-1
-185,184,-1
-185,184,-1
-185,184,-1
-185,184,-1
-185,184,-1
-185,184,-1
-185,184,-1
-211,328,34
-211,328,34
-313,446,79
-313,446,79
-313,446,79
-313,446,79
-313,446,79
-313,446,79
-313,446,79
-313,446,79
564,-485,-6
564,-485,-6
564,-485,-6
467,-514,-47
467,-514,-47
467,-514,-47
467,-514,-47
467,-514,-47
467,-514,-47
467,-514,-47
467,-514,-47
467,-514,-47
467,-514,-47
467,-514,-47
467,-514,-47
360,-464,-42
360,-464,-42
360,-464,-42
360,-464,-42
360,-464,-42
360,-464,-42
360,-464,-42
360,-464,-42
360,-464,-42
282,-418,-77
282,-418,-77
282,-418,-77
282,-418,-77
282,-418,-77
216,-325,-100
216,-325,-100
216,-325,-100
216,-325,-100
216,-325,-100
216,-325,-100
216,-325,-100
216,-325,-100
216,-325,-100
216,-325,-100
216,-325,-100
216,-325,-100
146,-238,-127
146,-238,-127
146,-238,-127
146,-238,-127
71,-193,-181
71,-193,-181
71,-193,-181
71,-193,-181
71,-193,-181
71,-193,-181
71,-193,-181
71,-193,-181
71,-193,-181
-38,-122,-289
-38,-122,-289
-38,-122,-289
-38,-122,-289
-38,-122,-289
-38,-122,-289
-38,-122,-289
-38,-122,-289
-38,-122,-289
-38,-122,-289
-38,-122,-289
-38,-122,-289
-219,0,-284
-219,0,-284
-219,0,-284
-219,0,-284
-219,0,-284
-219,0,-284
-219,0,-284
-219,0,-284
-219,0,-284
-219,0,-284
-219,0,-284
-219,0,-284
-219,0,-284
-219,0,-284
-219,0,-284
-273,114,-329
-273,114,-329
-273,114,-329
-273,114,-329
-273,114,-329
-273,114,-329
-251,206,-324
-251,206,-324
-251,206,-324
-251,206,-324
-251,206,-324
-251,206,-324
-251,206,-324
-269,200,-279
-269,200,-279
-269,200,-279
-269,200,-279
-269,200,-279
-269,200,-279
-269,200,-279
-269,200,-279
-269,200,-279
-269,200,-279
-269,200,-279
-269,200,-279
-280,248,-213
-280,248,-213
-305,343,-175
-305,343,-175
-305,343,-175
-305,343,-175
-305,343,-175
-305,343,-175
-305,343,-175
-305,343,-175
-305,343,-175
-305,343,-175
-408,380,-212
438,-433,197
438,-433,197
438,-433,197
438,-433,197
438,-433,197
438,-433,197
438,-433,197
438,-433,197
438,-433,197
438,-433,197
438,-433,197
464,-512,110
464,-512,110
464,-512,110
464,-512,110
537,-462,-11
537,-462,-11
537,-462,-11
537,-462,-11
537,-462,-11
537,-462,-11
537,-462,-11
537,-462,-11
537,-462,-11
537,-462,-11
537,-462,-11
537,-462,-11
537,-462,-11
575,-381,-122
575,-381,-122
575,-381,-122
575,-381,-122
553,-317,-149
553,-317,-149
553,-317,-149
553,-317,-149
553,-317,-149
553,-317,-149
553,-317,-149
553,-317,-149
453,-302,-229
453,-302,-229
453,-302,-229
453,-302,-229
453,-302,-229
453,-302,-229
453,-302,-229
453,-302,-229
453,-302,-229
453,-302,-229
453,-302,-229
453,-302,-229
396,-295,-244
309,-167,-256
309,-167,-256
309,-167,-256
309,-167,-256
309,-167,-256
309,-167,-256
309,-167,-256
309,-167,-256
309,-167,-256
309,-167,-256
309,-167,-256
211,-72,-306
211,-72,-306
211,-72,-306
211,-72,-306
211,-72,-306
211,-72,-306
211,-72,-306
211,-72,-306
211,-72,-306
211,-72,-306
128,-1,-376
128,-1,-376
128,-1,-376
128,-1,-376
48,-15,-391
48,-15,-391
48,-15,-391
48,-15,-391
48,-15,-391
48,-15,-391
48,-15,-391
48,-15,-391
48,-15,-391
48,-15,-391
48,-15,-391
48,-15,-391
48,-15,-391
48,-15,-391
48,-15,-391
48,-15,-391
-19,-58,-359
-63,-12,-320
-63,-12,-320
-63,-12,-320
-63,-12,-320
-63,-12,-320
-63,-12,-320
-63,-12,-320
-63,-12,-320
-63,-12,-320
-63,-12,-320
-63,-12,-320
-63,-12,-320
-63,-12,-320
-79,91,-331
-79,91,-331
-79,91,-331
-79,91,-331
-79,91,-331
-79,91,-331
-79,91,-331
-79,91,-331
-80,186,-375
-80,186,-375
-80,186,-375