aX,aY,aZ
-1219,106,-302
-1281,169,-284
-1281,169,-284
-1281,169,-284
-1281,169,-284
-1281,169,-284
-1338,254,-291
-1338,254,-291
-1338,254,-291
-1338,254,-291
-1338,254,-291
-1338,254,-291
-1363,338,-311
-1363,338,-311
-1363,338,-311
-1363,338,-311
-1363,338,-311
-1363,338,-311
-1360,382,-330
-1360,382,-330
-1360,382,-330
-1360,382,-330
-1360,382,-330
-1360,382,-330
-1337,371,-342
-1337,371,-342
-1337,371,-342
-1337,371,-342
-1337,371,-342
-1337,371,-342
-1314,291,-324
-1314,291,-324
-1314,291,-324
-1314,291,-324
-1314,291,-324
-1314,291,-324
-1317,161,-295
-1317,161,-295
-1317,161,-295
-1317,161,-295
-1317,161,-295
-1317,161,-295
-1317,161,-295
-1347,18,-263
-1347,18,-263
-1347,18,-263
-1347,18,-263
-1347,18,-263
-1395,-127,-233
-1395,-127,-233
-1395,-127,-233
-1395,-127,-233
-1395,-127,-233
-1395,-127,-233
-1465,-232,-190
-1465,-232,-190
-1465,-232,-190
-1465,-232,-190
-1465,-232,-190
-1465,-232,-190
-1465,-232,-190
-1465,-232,-190
-1465,-232,-190
-1465,-232,-190
-1465,-232,-190
-1553,-285,-130
-1553,-285,-130
-1553,-285,-130
-1553,-285,-130
-1553,-285,-130
-1553,-285,-130
-1553,-285,-130
-1553,-285,-130
-1553,-285,-130
-1553,-285,-130
-1553,-285,-130
-1382,-154,23
-1382,-154,23
-1382,-154,23
-1382,-154,23
-1382,-154,23
-1382,-154,23
-1252,-119,106
-1252,-119,106
-1084,-94,148
-1084,-94,148
-1084,-94,148
-1084,-94,148
-1084,-94,148
-1084,-94,148
-826,-54,86
-826,-54,86
-826,-54,86
-826,-54,86
-826,-54,86
-826,-54,86
-826,-54,86
-826,-54,86
-826,-54,86
-826,-54,86
-826,-54,86
-826,-54,86
-826,-54,86
-826,-54,86
-826,-54,86
-826,-54,86
-826,-54,86
-826,-54,86
-826,-54,86

-1813,533,-28
-1813,533,-28
-1807,536,-77
-1807,536,-77
-1807,536,-77
-1807,536,-77
-1807,536,-77
-1711,503,-137
-1711,503,-137
-1711,503,-137
-1711,503,-137
-1711,503,-137
-1711,503,-137
-1597,477,-163
-1597,477,-163
-1597,477,-163
-1597,477,-163
-1597,477,-163
-1518,459,-129
-1518,459,-129
-1518,459,-129
-1518,459,-129
-1518,459,-129
-1518,459,-129
-1529,428,-24
-1529,428,-24
-1529,428,-24
-1529,428,-24
-1529,428,-24
-1529,428,-24
-1529,428,-24
-1529,428,-24
-1529,428,-24
-1529,428,-24
-1529,428,-24
-1554,364,299
-1554,364,299
-1554,364,299
-1554,364,299
-1554,364,299
-1554,364,299
-1393,342,344
-1393,342,344
-1393,342,344
-1393,342,344
-1393,342,344
-1393,342,344
-1065,398,378
-1065,398,378
-1065,398,378
-1065,398,378
-628,412,198
-628,412,198
-628,412,198
-628,412,198
-628,412,198
-628,412,198
-57,335,-158
-57,335,-158
-57,335,-158
-57,335,-158
-57,335,-158
-57,335,-158
720,274,-445
720,274,-445
720,274,-445
720,274,-445
720,274,-445
1543,168,-793
1543,168,-793
1543,168,-793
1543,168,-793
1543,168,-793
1543,168,-793
1543,168,-793
1543,168,-793
1543,168,-793
1543,168,-793
1543,168,-793
1543,168,-793
1543,168,-793
1543,168,-793
1543,168,-793
1543,168,-793
1543,168,-793
1543,168,-793
2038,-367,-2048
2038,-367,-2048
2038,-367,-2048
2038,-367,-2048
2038,-367,-2048
2038,-367,-2048
2047,-945,-1882
2047,-945,-1882
2047,-945,-1882
2047,-945,-1882
2047,-945,-1882
2047,-945,-1882
1831,-1550,-1366
1831,-1550,-1366
1831,-1550,-1366
1831,-1550,-1366
1831,-1550,-1366
1831,-1550,-1366
661,-1823,-1211
661,-1823,-1211
661,-1823,-1211
661,-1823,-1211
661,-1823,-1211
661,-1823,-1211
661,-1823,-1211
661,-1823,-1211
661,-1823,-1211
661,-1823,-1211
661,-1823,-1211
240,-723,-1215
240,-723,-1215
240,-723,-1215
240,-723,-1215

-1160,360,-748
-1160,360,-748
-1160,360,-748
-1160,360,-748
-1160,360,-748
-1160,360,-748
-1160,360,-748
-1335,641,-865
-1335,641,-865
-1335,641,-865
-1335,641,-865
-1335,641,-865
-1335,641,-865
-1439,725,-842
-1439,725,-842
-1439,725,-842
-1439,725,-842
-1439,725,-842
-1439,725,-842
-1439,725,-842
-1439,725,-842
-1439,725,-842
-1439,725,-842
-1439,725,-842
-1711,948,-769
-1711,948,-769
-1711,948,-769
-1711,948,-769
-1711,948,-769
-1711,948,-769
-1911,1128,-758
-1911,1128,-758
-1911,1128,-758
-1911,1128,-758
-1911,1128,-758
-2048,1325,-665
-2048,1325,-665
-2048,1325,-665
-2048,1325,-665
-2048,1325,-665
-2048,1325,-665
-2048,1373,-545
-2048,1373,-545
-2048,1373,-545
-2048,1373,-545
-2048,1373,-545
-2048,1373,-545
-2045,1258,-446
-2045,1258,-446
-2045,1258,-446
-2045,1258,-446
-2045,1258,-446
-1859,1003,-321
-1859,1003,-321
-1859,1003,-321
-1859,1003,-321
-1859,1003,-321
-1859,1003,-321
-1291,539,16
-1291,539,16
-1291,539,16
-1291,539,16
-1291,539,16
-649,30,374
-649,30,374
-649,30,374
-649,30,374
-649,30,374
-649,30,374
151,-324,279
151,-324,279
151,-324,279
151,-324,279
151,-324,279
151,-324,279
1398,-297,-32
1398,-297,-32
1398,-297,-32
1398,-297,-32
1398,-297,-32
1398,-297,-32
2047,-268,-391
2047,-268,-391
2047,-268,-391
2047,-268,-391
2047,-268,-391
2047,-125,-1638
2047,-125,-1638
2047,-125,-1638
2047,-125,-1638
2047,-125,-1638
2047,-125,-1638
2034,106,-2048
2034,106,-2048
2034,106,-2048
2034,106,-2048
2034,106,-2048
2034,106,-2048
2034,106,-2048
2034,106,-2048
2034,106,-2048
2034,106,-2048
2034,106,-2048
2047,-1615,-1121
2047,-1615,-1121
2047,-1615,-1121
2047,-1615,-1121
2047,-1615,-1121
2047,-1615,-1121
2026,-2048,-405
2026,-2048,-405
2026,-2048,-405
2026,-2048,-405
2026,-2048,-405
2026,-2048,-405
2026,-2048,-405
2026,-2048,-405
2026,-2048,-405
2026,-2048,-405

-1116,378,-603
-1116,378,-603
-1160,459,-646
-1160,459,-646
-1160,459,-646
-1160,459,-646
-1160,459,-646
-1160,459,-646
-1213,555,-670
-1213,555,-670
-1213,555,-670
-1213,555,-670
-1213,555,-670
-1213,555,-670
-1291,664,-639
-1291,664,-639
-1291,664,-639
-1291,664,-639
-1291,664,-639
-1291,664,-639
-1382,714,-602
-1382,714,-602
-1382,714,-602
-1382,714,-602
-1382,714,-602
-1382,714,-602
-1454,754,-598
-1454,754,-598
-1454,754,-598
-1454,754,-598
-1454,754,-598
-1509,870,-578
-1509,870,-578
-1509,870,-578
-1509,870,-578
-1509,870,-578
-1509,870,-578
-1567,998,-485
-1567,998,-485
-1567,998,-485
-1567,998,-485
-1567,998,-485
-1567,998,-485
-1636,1074,-406
-1636,1074,-406
-1636,1074,-406
-1636,1074,-406
-1636,1074,-406
-1636,1074,-406
-1649,1115,-360
-1649,1115,-360
-1649,1115,-360
-1649,1115,-360
-1649,1115,-360
-1651,1127,-279
-1651,1127,-279
-1651,1127,-279
-1651,1127,-279
-1651,1127,-279
-1651,1127,-279
-1651,1127,-279
-1651,1127,-279
-1651,1127,-279
-1651,1127,-279
-1651,1127,-279
-1307,529,-95
-1307,529,-95
-1307,529,-95
-1307,529,-95
-1307,529,-95
-1307,529,-95
-781,57,33
-781,57,33
-781,57,33
-781,57,33
-781,57,33
-781,57,33
-212,-210,93
-212,-210,93
-212,-210,93
-212,-210,93
-212,-210,93
-212,-210,93
446,-352,-36
446,-352,-36
446,-352,-36
446,-352,-36
446,-352,-36
446,-352,-36
1025,-501,-310
1025,-501,-310
1025,-501,-310
1025,-501,-310
1025,-501,-310
1025,-501,-310
1025,-501,-310
1616,-383,-982
1616,-383,-982
1616,-383,-982
1616,-383,-982
1616,-383,-982
1616,-383,-982
2047,-323,-1817
2047,-323,-1817
2047,-323,-1817
2047,-323,-1817
2047,-323,-1817
2047,-323,-1817
2047,-694,-2020
2047,-694,-2020
2047,-694,-2020
2047,-694,-2020
2047,-694,-2020
2038,-1250,-1978
2038,-1250,-1978
2038,-1250,-1978
2038,-1250,-1978
2038,-1250,-1978
2038,-1250,-1978

-1193,656,-1018
-1350,1053,-1153
-1350,1053,-1153
-1350,1053,-1153
-1350,1053,-1153
-1350,1053,-1153
-1587,1303,-1091
-1587,1303,-1091
-1587,1303,-1091
-1587,1303,-1091
-1587,1303,-1091
-1587,1303,-1091
-1865,1459,-892
-1865,1459,-892
-1865,1459,-892
-1865,1459,-892
-1865,1459,-892
-1865,1459,-892
-1865,1459,-892
-2048,1673,-682
-2048,1673,-682
-2048,1673,-682
-2048,1673,-682
-2048,1673,-682
-2048,1673,-682
-2048,1673,-682
-2048,1673,-682
-2048,1673,-682
-2048,1673,-682
-2048,1673,-682
-2045,2047,-470
-2045,2047,-470
-2045,2047,-470
-2045,2047,-470
-2045,2047,-470
-2045,2047,-470
-2045,2047,-470
-2045,2047,-470
-2045,2047,-470
-2045,2047,-470
-2045,2047,-470
-2045,2047,-470
-1537,1969,-284
-1537,1969,-284
-1537,1969,-284
-1537,1969,-284
-1537,1969,-284
-1537,1969,-284
-1537,1969,-284
-1537,1969,-284
-1537,1969,-284
-1537,1969,-284
-1537,1969,-284
-1537,1969,-284
-1537,1969,-284
-1537,1969,-284
-1537,1969,-284
-1537,1969,-284
-1537,1969,-284
-1537,1969,-284
1718,-831,-692
1718,-831,-692
1718,-831,-692
1718,-831,-692
1718,-831,-692
1718,-831,-692
1718,-831,-692
1817,-1793,-788
1817,-1793,-788
1817,-1793,-788
1817,-1793,-788
1817,-1793,-788
1817,-1793,-788
2030,-1118,-1156
2044,-1033,-2048
2044,-1033,-2048
2047,-1806,-1523
-336,-860,-896

-1409,1229,-856
-1616,1516,-604
-1616,1516,-604
-1616,1516,-604
-1616,1516,-604
-1616,1516,-604
-2001,1938,-319
-2001,1938,-319
-2001,1938,-319
-2001,1938,-319
-2001,1938,-319
-2048,2047,-117
-2048,2047,-117
-2048,2047,-117
-2048,2047,-117
-2048,2047,-117
-2048,2047,-117
-2048,2047,-117
-2048,2047,-117
-2048,2047,-117
-2048,2047,-117
-2048,2047,-117
-2048,2047,-117
-2048,2047,-117
-1765,1968,-289
-1765,1968,-289
-1765,1968,-289
-1765,1968,-289
-1765,1968,-289
-1765,1968,-289
-1765,1968,-289
-1765,1968,-289
-1765,1968,-289
-1765,1968,-289
-1765,1968,-289
-1765,1968,-289
-125,531,74
-125,531,74
-125,531,74
-125,531,74
-125,531,74
982,-478,-280
982,-478,-280
982,-478,-280
982,-478,-280
982,-478,-280
982,-478,-280
982,-478,-280
2047,-1719,-961
2047,-1719,-961
2047,-1719,-961
2047,-1719,-961
2047,-1719,-961
2027,-690,-1431
2047,-506,-1883
2047,-506,-1883
2047,-506,-1883
2047,-506,-1883
2047,-2030,-1472
1204,-1576,-1728
1204,-1576,-1728



-1209,949,-882
-1209,949,-882
-1360,1262,-986
-1360,1262,-986
-1360,1262,-986
-1360,1262,-986
-1360,1262,-986
-1360,1262,-986
-1530,1567,-857
-1530,1567,-857
-1530,1567,-857
-1530,1567,-857
-1530,1567,-857
-1530,1567,-857
-1530,1567,-857
-1530,1567,-857
-1530,1567,-857
-1530,1567,-857
-1530,1567,-857
-1530,1567,-857
-1530,1567,-857
-1530,1567,-857
-1530,1567,-857
-1530,1567,-857
-1530,1567,-857
-2041,2047,-230
-2041,2047,-230
-2041,2047,-230
-2041,2047,-230
-2041,2047,-230
-2048,2044,-332
-2048,2044,-332
-2048,2044,-332
-2048,2044,-332
-2048,2044,-332
-2048,2044,-332
-1921,1990,-494
-1921,1990,-494
-1921,1990,-494
-1921,1990,-494
-1921,1990,-494
-1921,1990,-494
-1597,1498,-665
-1597,1498,-665
-1597,1498,-665
-1597,1498,-665
-1597,1498,-665
-1597,1498,-665
-1203,779,-549
-1203,779,-549
-1203,779,-549
-1203,779,-549
-1203,779,-549
-1203,779,-549
-715,46,106
-715,46,106
-715,46,106
-715,46,106
-715,46,106
-715,46,106
-94,-527,700
-94,-527,700
-94,-527,700
-94,-527,700
-94,-527,700
-94,-527,700
1032,-673,-89
1032,-673,-89
1032,-673,-89
1032,-673,-89
1032,-673,-89
1032,-673,-89
1940,-522,-601
1940,-522,-601
1940,-522,-601
1940,-522,-601
1940,-522,-601
2047,24,-1142
2047,24,-1142
2047,24,-1142
2047,24,-1142
2047,24,-1142
2047,24,-1142
2047,24,-1142
2047,24,-1142
2047,24,-1142
2047,24,-1142
2047,24,-1142
2044,-339,-2048
2044,-339,-2048
2044,-339,-2048
2044,-339,-2048
2044,-339,-2048
2044,-339,-2048
2047,-1624,-1658
2047,-1624,-1658
2047,-1624,-1658
2047,-1624,-1658
2047,-1624,-1658
2047,-1624,-1658
2047,-1624,-1658
2047,-2048,-1004
2047,-2048,-1004
2047,-2048,-1004
2047,-2048,-1004
2047,-2048,-1004
2047,-2048,-1004
2047,-2048,-1004
2047,-2048,-1004
2047,-2048,-1004
2047,-2048,-1004
2047,-2048,-1004
2047,-2048,-1004
2047,-2048,-1004
-1836,-1322,-162
-1836,-1322,-162
-1836,-1322,-162
-1836,-1322,-162
-1836,-1322,-162

-1287,508,-670
-1287,508,-670
-1287,508,-670
-1287,508,-670
-1372,598,-741
-1372,598,-741
-1372,598,-741
-1372,598,-741
-1372,598,-741
-1372,598,-741
-1468,685,-769
-1468,685,-769
-1468,685,-769
-1468,685,-769
-1468,685,-769
-1468,685,-769
-1554,772,-783
-1554,772,-783
-1554,772,-783
-1554,772,-783
-1554,772,-783
-1554,772,-783
-1624,943,-708
-1624,943,-708
-1624,943,-708
-1624,943,-708
-1624,943,-708
-1624,943,-708
-1605,1080,-579
-1605,1080,-579
-1605,1080,-579
-1605,1080,-579
-1605,1080,-579
-1605,1080,-579
-1658,1198,-514
-1658,1198,-514
-1658,1198,-514
-1658,1198,-514
-1658,1198,-514
-1658,1198,-514
-1828,1284,-427
-1828,1284,-427
-1828,1284,-427
-1828,1284,-427
-1828,1284,-427
-1828,1284,-427
-1955,1282,-154
-1955,1282,-154
-1955,1282,-154
-1955,1282,-154
-1955,1282,-154
-1878,1067,286
-1878,1067,286
-1878,1067,286
-1878,1067,286
-1878,1067,286
-1878,1067,286
-1401,546,265
-1401,546,265
-1401,546,265
-1401,546,265
-1401,546,265
-1401,546,265
-1401,546,265
-1401,546,265
-1401,546,265
-1401,546,265
-1401,546,265
224,-297,-371
224,-297,-371
224,-297,-371
224,-297,-371
224,-297,-371
224,-297,-371
708,-229,-317
708,-229,-317
708,-229,-317
708,-229,-317
708,-229,-317
708,-229,-317
708,-229,-317
708,-229,-317
708,-229,-317
708,-229,-317
708,-229,-317
708,-229,-317
1963,-122,-839
1963,-122,-839
1963,-122,-839
1963,-122,-839
1963,-122,-839
1963,-122,-839
2047,-509,-1119
2047,-509,-1119
2047,-509,-1119
2047,-509,-1119
2047,-509,-1119
2040,-1473,-1523
2040,-1473,-1523
2040,-1473,-1523
2040,-1473,-1523
2040,-1473,-1523
2040,-1473,-1523
2044,-2048,-1102
2044,-2048,-1102
2044,-2048,-1102
2044,-2048,-1102
2044,-2048,-1102
2044,-2048,-1102
2047,-2048,-584
2047,-2048,-584
2047,-2048,-584
2047,-2048,-584
2047,-2048,-584
2047,-2048,-584
1315,-1961,-119
1315,-1961,-119
1315,-1961,-119
1315,-1961,-119

-1318,500,-566
-1387,598,-592
-1387,598,-592
-1387,598,-592
-1387,598,-592
-1387,598,-592
-1387,598,-592
-1436,677,-630
-1436,677,-630
-1436,677,-630
-1436,677,-630
-1436,677,-630
-1436,677,-630
-1481,714,-640
-1481,714,-640
-1481,714,-640
-1481,714,-640
-1481,714,-640
-1525,673,-580
-1525,673,-580
-1525,673,-580
-1525,673,-580
-1525,673,-580
-1525,673,-580
-1525,673,-580
-1525,673,-580
-1525,673,-580
-1525,673,-580
-1525,673,-580
-1672,657,-492
-1672,657,-492
-1672,657,-492
-1672,657,-492
-1672,657,-492
-1672,657,-492
-1754,655,-411
-1754,655,-411
-1754,655,-411
-1754,655,-411
-1754,655,-411
-1754,655,-411
-1754,655,-411
-1754,655,-411
-1754,655,-411
-1754,655,-411
-1754,655,-411
-1956,710,-242
-1956,710,-242
-1956,710,-242
-1956,710,-242
-1956,710,-242
-1956,710,-242
-1948,677,-52
-1948,677,-52
-1948,677,-52
-1948,677,-52
-1948,677,-52
-1948,677,-52
-1948,677,-52
-1948,677,-52
-1948,677,-52
-1948,677,-52
-1948,677,-52
-1470,346,-186
-1470,346,-186
-1470,346,-186
-1470,346,-186
-1470,346,-186
-1470,346,-186
-1470,346,-186
-1470,346,-186
-1470,346,-186
-1470,346,-186
-1470,346,-186
-558,7,70
-558,7,70
-558,7,70
-558,7,70
-558,7,70
-558,7,70
79,-32,-154
79,-32,-154
79,-32,-154
79,-32,-154
79,-32,-154
79,-32,-154
921,-88,-337
921,-88,-337
921,-88,-337
921,-88,-337
921,-88,-337
1758,-166,-474
1758,-166,-474
1758,-166,-474
1758,-166,-474
1758,-166,-474
1758,-166,-474
2047,-428,-899
2047,-428,-899
2047,-428,-899
2047,-428,-899
2047,-428,-899
2047,-428,-899
2047,-428,-899
2047,-428,-899
2047,-428,-899
2047,-428,-899
2047,-428,-899
2040,-1548,-2048
2040,-1548,-2048
2040,-1548,-2048
2040,-1548,-2048
2040,-1548,-2048
2040,-1548,-2048
2047,-1491,-1509
2047,-1491,-1509
2047,-1491,-1509
2047,-1491,-1509
2047,-1491,-1509
